trial_nr	onset	event_type	phase	response	nr_frames	occluder_exit	onset_abs	duration
	0.02058358333306387	instruction	0		0		2.796733833340113	1.815203083329834
	1.8280902083351975	pulse	0	t			4.604240458342247	
0	1.835786666662898	fixation	0		62		4.611936916669947	0.5056296666734852
0	2.341416333336383	interactor	1		150		5.117566583343432	1.249599083326757
0	3.59101541666314	occluder	2		90		6.367165666670189	0.7492442500079051
0	4.340259666671045	ball_movement	3		360	0.757905666673	7.116409916678094	3.003866958330036
0	7.344126625001081	iti	4		128		10.12027687500813	1.0601550416613463
1	8.404281666662428	fixation	0		60		11.180431916669477	0.5064594583382132
1	8.91074112500064	interactor	1		150		11.68689137500769	1.250100791672594
1	10.160841916673235	occluder	2		90		12.936992166680284	0.7465820416546194
1	10.907423958327854	ball_movement	3		360	0.744114416681	13.683574208334903	2.998834458339843
1	13.906258416667697	iti	4		138		16.682408666674746	1.1507365416618995
2	15.056994958329597	fixation	0		61		17.833145208336646	0.5089386666804785
2	15.565933625010075	interactor	1		150		18.342083875017124	1.2530244166555349
2	16.81895804166561	occluder	2		90		19.59510829167266	0.7468948750029085
2	17.56585291666852	ball_movement	3		360	0.746348708344	20.342003166675568	2.999544666658039
2	20.565397583326558	iti	4		298		23.341547833333607	2.486965083342511
3	23.05236266666907	fixation	0		60		25.828512916676118	0.4999710416595917
3	23.55233370832866	interactor	1		150		26.32848395833571	1.246553875011159
3	24.79888758333982	occluder	2		90		27.57503783334687	0.7498365833307616
3	25.54872416667058	ball_movement	3		360	0.758404000007	28.32487441667763	3.003469708331977
3	28.55219387500256	iti	4		131		31.328344125009608	1.0882050833315589
4	29.640398958334117	fixation	0		61		32.416549208341166	0.5117619583324995
4	30.152160916666617	interactor	1		150		32.928311166673666	1.2467624583368888
4	31.398923375003505	occluder	2		90		34.175073625010555	0.7532203333248617
4	32.15214370832837	ball_movement	3		359	0.747738000005	34.928293958335416	2.9882445833354723
4	35.14038829166384	iti	4		296		37.91653854167089	2.4665603333414765
5	37.606948625005316	fixation	0		61		40.383098875012365	0.5083327916654525
5	38.11528141667077	interactor	1		149		40.89143166667782	1.2388809583353577
5	39.354162375006126	occluder	2		90		42.130312625013175	0.7532487083226442
5	40.10741108332877	ball_movement	3		360	0.738669874991	42.88356133333582	2.9968578333355254
5	43.104268916664296	iti	4		141		45.880419166671345	1.1777122500061523
6	44.28198116667045	fixation	0		59		47.0581314166775	0.4915998749929713
6	44.77358104166342	interactor	1		151		47.54973129167047	1.2584652083460242
6	46.032046250009444	occluder	2		89		48.80819650001649	0.7389318333298434
6	46.77097808333929	ball_movement	3		360	0.730174750002	49.547128333346336	3.002536208325182
6	49.77351429166447	iti	4		339		52.54966454167152	2.825076875000377
7	52.598591166664846	fixation	0		61		55.374741416671895	0.5082571666716831
7	53.10684833333653	interactor	1		150		55.88299858334358	1.2534798333363142
7	54.36032816667284	occluder	2		89		57.13647841667989	0.7387138749909354
7	55.09904204166378	ball_movement	3		357	0.791715375002	57.87519229167083	3.0112414583418285
7	58.11028350000561	iti	4		534		60.88643375001266	4.446515375006129
8	62.55679887501174	fixation	0		59		65.33294912501879	0.491317458319827
8	63.04811633333156	interactor	1		151		65.82426658333861	1.2590762083418667
8	64.30719254167343	occluder	2		90		67.08334279168048	0.7501016666647047
8	65.05729420833813	ball_movement	3		359	0.718512124993	67.83344445834518	2.9883709583373275
8	68.04566516667546	iti	4		186		70.82181541668251	1.5498732499981998
9	69.59553841667366	fixation	0		60		72.37168866668071	0.5029841249925084
9	70.09852254166617	interactor	1		150		72.87467279167322	1.250093458336778
9	71.34861600000295	occluder	2		90		74.12476625001	0.7533225416700589
9	72.10193854167301	ball_movement	3		360	0.741666625006	74.87808879168006	2.9971534999931464
9	75.09909204166615	iti	4		227		77.8752422916732	1.8893517499964219
9	76.98844379166258	task_prompt	5		300		79.76459404166962	5.001896875008242
9	81.99034066667082	post_prompt_iti	6		120		84.76649091667787	0.9962729166581994
10	82.98661358332902	fixation	0		60		85.76276383333607	0.5034371250076219
10	83.49005070833664	interactor	1		150		86.26620095834369	1.2465068750025239
10	84.73655758333916	occluder	2		90		87.51270783334621	0.7534114166628569
10	85.48996900000202	ball_movement	3		361	0.758387875001	88.26611925000907	3.008251333332737
10	88.49822033333476	iti	4		504		91.2743705833418	4.2000062500010245
11	92.69822658333578	fixation	0		61		95.47437683334283	0.5118263750046026
11	93.21005295834038	interactor	1		150		95.98620320834743	1.2500006249902071
11	94.46005358333059	occluder	2		90		97.23620383333764	0.7500161666685017
11	95.21006974999909	ball_movement	3		360	0.766248083324	97.98622000000614	2.996447875004378
11	98.20651762500347	iti	4		331		100.98266787501052	2.761997916662949
12	100.96851554166642	fixation	0		59		103.74466579167347	0.48800287500489503
12	101.45651841667132	interactor	1		150		104.23266866667836	1.2502468333404977
12	102.70676525001181	occluder	2		91		105.48291550001886	0.758564583316911
12	103.46532983332872	ball_movement	3		359	0.760783124992	106.24148008333577	2.9911246249976102
12	106.45645445832633	iti	4		261		109.23260470833338	2.172046916675754
13	108.62850137500209	fixation	0		60		111.40465162500914	0.5000105000071926
13	109.12851187500928	interactor	1		150		111.90466212501633	1.256376833320246
13	110.38488870832953	occluder	2		90		113.16103895833658	0.7434170416818233
13	111.12830575001135	ball_movement	3		360	0.750670875001	113.9044560000184	3.0065792916575447
13	114.1348850416689	iti	4		252		116.91103529167594	2.096582916667103
14	116.231467958336	fixation	0		60		119.00761820834305	0.4998689583298983
14	116.7313369166659	interactor	1		150		119.50748716667295	1.2501742916647345
14	117.98151120833063	occluder	2		89		120.75766145833768	0.7422137083340203
14	118.72372491666465	ball_movement	3		361	0.788034416662	121.4998751666717	3.0075776250014314
14	121.73130254166608	iti	4		304		124.50745279167313	2.5333038749959087
15	124.26460641666199	fixation	0		61		127.04075666666904	0.5085372083412949
15	124.77314362500329	interactor	1		149		127.54929387501033	1.241845500000636
15	126.01498912500392	occluder	2		90		128.79113937501097	0.7501057500048773
15	126.7650948750088	ball_movement	3		361	0.738634000008	129.54124512501585	3.007831291659386
15	129.77292616666819	iti	4		123		132.54907641667523	1.0250688333326252
16	130.7979950000008	fixation	0		60		133.57414525000786	0.5001596666697878
16	131.2981546666706	interactor	1		150		134.07430491667765	1.2532344166684197
16	132.55138908333902	occluder	2		90		135.32753933334607	0.7500280833337456
16	133.30141716667276	ball_movement	3		360	0.772749541677	136.0775674166798	2.993212749992381
16	136.29462991666514	iti	4		138		139.0707801666722	1.1532684166741092
17	137.44789833333925	fixation	0		61		140.2240485833463	0.5082605416682782
17	137.95615887500753	interactor	1		149		140.73230912501458	1.2418696666572941
17	139.19802854166483	occluder	2		91		141.97417879167187	0.7588360000081593
17	139.95686454167299	ball_movement	3		352	0.849933583333	142.73301479168003	2.9909592916665133
17	142.9478238333395	iti	4		144		145.72397408334655	1.2036642083257902
18	144.1514880416653	fixation	0		60		146.92763829167234	0.496480125002563
18	144.64796816666785	interactor	1		150		147.4241184166749	1.2534101250057574
18	145.9013782916736	occluder	2		90		148.67752854168066	0.7468713749985909
18	146.6482496666722	ball_movement	3		360	0.725063874997	149.42439991667925	2.999481916660443
18	149.64773158333264	iti	4		163		152.4238818333397	1.361988000004203
19	151.00971958333685	fixation	0		60		153.7858698333439	0.4964472499996191
19	151.50616683333647	interactor	1		150		154.28231708334351	1.2535259583382867
19	152.75969279167475	occluder	2		90		155.5358430416818	0.7498741249874001
19	153.50956691666215	ball_movement	3		359	0.761132500003	156.2857171666692	2.9877086250053253
19	156.49727554166748	iti	4		180		159.27342579167453	1.5030471666686935
19	158.00032270833617	task_prompt	5		300		160.77647295834322	5.001178458333015
19	163.0015011666692	post_prompt_iti	6		120		165.77765141667624	1.000066708336817
20	164.001567875006	fixation	0		60		166.77771812501305	0.4961849166575121
20	164.49775279166352	interactor	1		149		167.27390304167056	1.2417871250072494
20	165.73953991667076	occluder	2		91		168.5156901666778	0.758824916658341
20	166.4983648333291	ball_movement	3		360	0.818324666674	169.27451508333615	3.002751874999376
20	169.50111670832848	iti	4		230		172.27726695833553	1.9165742500044871
21	171.41769095833297	fixation	0		60		174.19384120834002	0.49318124999990687
21	171.91087220833288	interactor	1		150		174.68702245833992	1.2571442083426518
21	173.16801641667553	occluder	2		90		175.94416666668258	0.7462489166646264
21	173.91426533334015	ball_movement	3		360	0.78344179166	176.6904155833472	3.0034557083272375
21	176.9177210416674	iti	4		513		179.69387129167444	4.271487541671377
22	181.18920858333877	fixation	0		59		183.96535883334582	0.48884037499374244
22	181.6780489583325	interactor	1		151		184.45419920833956	1.2612502083356958
22	182.9392991666682	occluder	2		89		185.71544941667526	0.7420060416625347
22	183.68130520833074	ball_movement	3		360	0.77506575	186.4574554583378	3.0076186250080355
22	186.68892383333878	iti	4		199		189.46507408334583	1.6567509583255742
22	188.34567479166435	short break	5		30		191.1218250416714	30.37484266667161
23	218.72051745833596	fixation	0		16		221.496667708343	0.121639499993762
23	218.84215695832972	interactor	1		150		221.61830720833677	1.25076358334627
23	220.092920541676	occluder	2		90		222.86907079168304	0.7536446666636039
23	220.8465652083396	ball_movement	3		360	0.784496916662	223.62271545834665	2.993495458329562
23	223.84006066666916	iti	4		312		226.6162109166762	2.5997668333293404
24	226.4398274999985	fixation	0		60		229.21597775000555	0.503357291672728
24	226.94318479167123	interactor	1		150		229.71933504167828	1.249886791658355
24	228.19307158332958	occluder	2		89		230.96922183333663	0.7475133333355188
24	228.9405849166651	ball_movement	3		361	0.75543325	231.71673516667215	3.0016595000051893
24	231.9422444166703	iti	4		321		234.71839466667734	2.6754712499969173
25	234.6177156666672	fixation	0		59		237.39386591667426	0.4890902083425317
25	235.10680587500974	interactor	1		150		237.8829561250168	1.256452374989749
25	236.3632582499995	occluder	2		91		239.13940850000654	0.7543650833395077
25	237.117623333339	ball_movement	3		360	0.800113916659	239.89377358334605	3.0003138333268
25	240.1179371666658	iti	4		136		242.89408741667285	1.1300010416744044
26	241.2479382083402	fixation	0		60		244.02408845834725	0.5032872499868972
26	241.7512254583271	interactor	1		150		244.52737570833415	1.2497691250027856
26	243.00099458332988	occluder	2		90		245.77714483333693	0.750708041668986
26	243.75170262499887	ball_movement	3		360	0.769080124999	246.52785287500592	2.996699458337389
26	246.74840208333626	iti	4		172		249.5245523333433	1.4360736249946058
27	248.18447570833087	fixation	0		60		250.9606259583379	0.500014083343558
27	248.68448979167442	interactor	1		150		251.46064004168147	1.2501224166626344
27	249.93461220833706	occluder	2		90		252.7107624583441	0.749904999989667
27	250.68451720832672	ball_movement	3		360	0.79454287501	253.46066745833377	3.0000405833416153
27	253.68455779166834	iti	4		486		256.4607080416754	4.053517583335633
28	257.738075375004	fixation	0		60		260.514225625011	0.49641041667200625
28	258.234485791676	interactor	1		150		261.01063604168303	1.2500652083253954
28	259.4845510000014	occluder	2		90		262.2607012500084	0.7533245833328692
28	260.23787558333424	ball_movement	3		360	0.747749416681	263.0140258333413	2.99648362500011
28	263.23435920833435	iti	4		122		266.0105094583414	1.0218344166642055
29	264.25619362499856	fixation	0		59		267.0323438750056	0.48649229167494923
29	264.7426859166735	interactor	1		151		267.51883616668056	1.2618074999918463
29	266.00449341666535	occluder	2		89		268.7806436666724	0.7388011250004638
29	266.7432945416658	ball_movement	3		360	0.783273875	269.51944479167287	2.999428374998388
29	269.7427229166642	iti	4		201		272.51887316667126	1.6748901666724123
30	271.4176130833366	fixation	0		61		274.19376333334367	0.5118072499899426
30	271.92942033332656	interactor	1		150		274.7055705833336	1.2466850416822126
30	273.1761053750088	occluder	2		90		275.9522556250158	0.7502719999902183
30	273.926377374999	ball_movement	3		355	0.78520025	276.70252762500604	3.0029884583345847
30	276.9293658333336	iti	4		171		279.7055160833406	1.421541250005248
31	278.3509070833388	fixation	0		59		281.1270573333459	0.4916967499884777
31	278.8426038333273	interactor	1		151		281.61875408333435	1.2617762916779611
31	280.10438012500526	occluder	2		89		282.8805303750123	0.7384142916707788
31	280.84279441667604	ball_movement	3		361	0.763602208332	283.6189446666831	3.008167499996489
31	283.85096191667253	iti	4		428		286.6271121666796	3.5665334166551474
32	287.4174953333277	fixation	0		60		290.1936455833347	0.5034811666700989
32	287.9209764999978	interactor	1		150		290.6971267500048	1.2467061666684458
32	289.1676826666662	occluder	2		89		291.9438329166733	0.7419064166606404
32	289.90958908332686	ball_movement	3		361	0.738648166676	292.6857393333339	3.00780895834032
32	292.9173980416672	iti	4		169		295.69354829167423	1.408539791664225
33	294.3259378333314	fixation	0		60		297.10208808333846	0.5001330000086455
33	294.82607083334005	interactor	1		150		297.6022210833471	1.2499520833225688
33	296.0760229166626	occluder	2		90		298.8521731666697	0.7531852916727075
33	296.82920820833533	ball_movement	3		359	0.76674924999	299.6053584583424	2.988578125005006
33	299.81778633334034	iti	4		224		302.5939365833474	1.866257499990752
34	301.6840438333311	fixation	0		59		304.46019408333814	0.4887785416794941
34	302.1728223750106	interactor	1		150		304.94897262501763	1.2501949583238456
34	303.4230173333344	occluder	2		90		306.1991675833415	0.7526794166769832
34	304.1756967500114	ball_movement	3		361	0.708336249998	306.95184700001846	3.0082769166619983
34	307.1839736666734	iti	4		138		309.96012391668046	1.149616041657282
35	308.3335897083307	fixation	0		61		311.10973995833774	0.5121542083361419
35	308.84574391666683	interactor	1		150		311.6218941666739	1.2466582500055665
35	310.0924021666724	occluder	2		89		312.86855241667945	0.7415565833362052
35	310.8339587500086	ball_movement	3		361	0.755251333336	313.61010900001565	3.008362708322238
35	313.84232145833084	iti	4		317		316.6184717083379	2.641391500001191
36	316.48371295833203	fixation	0		60		319.2598632083391	0.49722891667624936
36	316.9809418750083	interactor	1		150		319.75709212501533	1.2497282499971334
36	318.2306701250054	occluder	2		90		321.00682037501247	0.7567228333209641
36	318.9873929583264	ball_movement	3		360	0.760120458333	321.76354320833343	2.993680083338404
36	321.9810730416648	iti	4		469		324.75722329167183	3.914586208338733
36	325.8956592500035	task_prompt	5		300		328.67180950001057	4.999994916666765
36	330.8956541666703	post_prompt_iti	6		120		333.67180441667733	1.0002980833378388
37	331.8959522500081	fixation	0		60		334.67210250001517	0.4961594999913359
37	332.39211174999946	interactor	1		150		335.1682620000065	1.250247166666668
37	333.6423589166661	occluder	2		90		336.4185091666732	0.7501903750089696
37	334.3925492916751	ball_movement	3		360	0.760356458341	337.16869954168214	2.9995114999910584
37	337.39206079166615	iti	4		484		340.1682110416732	4.033281750002061
38	341.4253425416682	fixation	0		61		344.20149279167526	0.5082590416714083
38	341.9336015833396	interactor	1		150		344.7097518333467	1.2502317916660104
38	343.18383337500563	occluder	2		90		345.9599836250127	0.749883291660808
38	343.93371666666644	ball_movement	3		360	0.758296083339	346.7098669166735	3.003363249998074
38	346.9370799166645	iti	4		385		349.71323016667156	3.2085085833386984
39	350.1455885000032	fixation	0		59		352.92173875001026	0.48799700000381563
39	350.63358550000703	interactor	1		150		353.4097357500141	1.250130791668198
39	351.8837162916752	occluder	2		90		354.6598665416823	0.7498886249959469
39	352.6336049166712	ball_movement	3		361	0.733333083335	355.4097551666782	3.0082624166680034
39	355.6418673333392	iti	4		450		358.4180175833462	3.749955499995849
40	359.391822833335	fixation	0		60		362.1679730833421	0.5001600833347766
40	359.8919829166698	interactor	1		150		362.66813316667685	1.2533063750015572
40	361.14528929167136	occluder	2		90		363.9214395416784	0.7472469166677911
40	361.89253620833915	ball_movement	3		360	0.743985291672	364.6686864583462	3.002747874998022
40	364.8952840833372	iti	4		448		367.6714343333442	3.733420999997179
41	368.62870508333435	fixation	0		59		371.4048553333414	0.48802554166468326
41	369.11673062499904	interactor	1		151		371.8928808750061	1.261837124999147
41	370.3785677499982	occluder	2		89		373.15471800000523	0.7386892916692887
41	371.1172570416675	ball_movement	3		360	0.768459249986	373.8934072916745	2.999005916659371
41	374.11626295832684	iti	4		216		376.8924132083339	1.8005122500035213
42	375.91677520833036	fixation	0		59		378.6929254583374	0.4952316666749539
42	376.4120068750053	interactor	1		150		379.18815712501237	1.2465027083235327
42	377.65850958332885	occluder	2		90		380.4346598333359	0.7472038749983767
42	378.4057134583272	ball_movement	3		360	0.738396375004	381.1818637083343	3.0025731250061654
42	381.4082865833334	iti	4		234		384.18443683334044	1.9470140416669892
43	383.3553006250004	fixation	0		60		386.13145087500743	0.5031247500010068
43	383.8584253750014	interactor	1		150		386.63457562500844	1.2471045833372045
43	385.1055299583386	occluder	2		90		387.88168020834564	0.7534317499957979
43	385.8589617083344	ball_movement	3		360	0.780226208342	388.63511195834144	2.9992735416744836
43	388.8582352500089	iti	4		135		391.6343855000159	1.1284735416556941
44	389.98670879166457	fixation	0		60		392.7628590416716	0.49999908334575593
44	390.4867078750103	interactor	1		150		393.2628581250174	1.2472392083291197
44	391.73394708333944	occluder	2		89		394.5100973333465	0.7414236666663783
44	392.4753707500058	ball_movement	3		361	0.743439208338	395.2515210000129	3.0077970833226573
44	395.4831678333285	iti	4		137		398.25931808333553	1.1450711250072345
44	396.6282389583357	short break	5		30		399.40438920834276	30.363655333334464
45	426.9918942916702	fixation	0		16		429.7680445416772	0.13641483333776705
45	427.12830912500795	interactor	1		149		429.904459375015	1.2421673749922775
45	428.3704765000002	occluder	2		91		431.1466267500073	0.7583062916673953
45	429.1287827916676	ball_movement	3		360	0.766471708324	431.90493304167467	2.9999853750050534
45	432.12876816667267	iti	4		180		434.9049184166797	1.4995618333341554
46	433.6283300000068	fixation	0		60		436.4044802500139	0.49743612499150913
46	434.12576612499834	interactor	1		145		436.9019163750054	1.25637225000537
46	435.3821383750037	occluder	2		89		438.15828862501075	0.7422970416664612
46	436.12443541667017	ball_movement	3		361	0.779149166672	438.9005856666772	3.0116903750022175
46	439.1361257916724	iti	4		244		441.91227604167943	2.029995249991771
47	441.16612104166416	fixation	0		61		443.9422712916712	0.508144416671712
47	441.67426545833587	interactor	1		149		444.4504157083429	1.2416439999942668
47	442.91590945833013	occluder	2		91		445.6920597083372	0.7588863333367044
47	443.67479579166684	ball_movement	3		360	0.762954124992	446.4509460416739	2.9987230416591046
47	446.67351883332594	iti	4		214		449.449669083333	1.785751416682615
47	448.45927025000856	task_prompt	5		300		451.2354205000156	4.998586999994586
47	453.45785725000314	post_prompt_iti	6		120		456.2340075000102	1.0037293750065146
48	454.46158662500966	fixation	0		60		457.2377368750167	0.4995831666601589
48	454.9611697916698	interactor	1		150		457.73732004167687	1.246617625001818
48	456.20778741667164	occluder	2		90		458.9839376666787	0.7506334166682791
48	456.9584208333399	ball_movement	3		360	0.744028666668	459.73457108334696	3.002727208324359
48	459.9611480416643	iti	4		254		462.7372982916713	2.113204958339338
49	462.0743530000036	fixation	0		60		464.85050325001066	0.5001371666585328
49	462.57449016666214	interactor	1		149		465.3506404166692	1.2386889583431184
49	463.81317912500526	occluder	2		90		466.5893293750123	0.7532326249929611
49	464.5664117499982	ball_movement	3		360	0.713659874993	467.3425620000053	2.9994615416653687
49	467.5658732916636	iti	4		121		470.34202354167064	1.0054556666727876
50	468.5713289583364	fixation	0		60		471.34747920834343	0.5029054999904474
50	469.0742344583268	interactor	1		150		471.8503847083339	1.249977541679982
50	470.3242120000068	occluder	2		90		473.10036225001386	0.7474190833308967
50	471.0716310833377	ball_movement	3		360	0.766416333325	473.84778133334476	3.006007249990944
50	474.07763833332865	iti	4		129		476.8537885833357	1.071904666678165
51	475.1495430000068	fixation	0		60		477.92569325001386	0.4996597083227243
51	475.64920270832954	interactor	1		150		478.4253529583366	1.253509166679578
51	476.9027118750091	occluder	2		90		479.67886212501617	0.7469296666531591
51	477.6496415416623	ball_movement	3		360	0.760556833324	480.4257917916693	3.0030102916643955
51	480.6526518333267	iti	4		171		483.4288020833337	1.4184876666840864
52	482.07113950001076	fixation	0		60		484.8472897500178	0.502929291658802
52	482.57406879166956	interactor	1		150		485.3502190416766	1.2502163333410863
52	483.82428512501065	occluder	2		90		486.6004353750177	0.7532994583161781
52	484.5775845833268	ball_movement	3		360	0.736830374997	487.3537348333339	2.9999915416847216
52	487.57757612501155	iti	4		140		490.3537263750186	1.1632034166541416
53	488.7407795416657	fixation	0		60		491.51692979167274	0.4999640416644979
53	489.2407435833302	interactor	1		150		492.01689383333724	1.2471732499980135
53	490.4879168333282	occluder	2		91		493.26406708333525	0.7616135416756151
53	491.2495303750038	ball_movement	3		359	0.75839329166	494.02568062501086	2.988406208329252
53	494.23793658333307	iti	4		382		497.0140868333401	3.1887806250015274
53	497.4267172083346	task_prompt	5		300		500.20286745834164	4.99380433333863
53	502.4205215416732	post_prompt_iti	6		119		505.1966717916803	0.9951152916619321
54	503.41563683333516	fixation	0		61		506.1917870833422	0.5082762499951059
54	503.92391308333026	interactor	1		149		506.7000633333373	1.241886333344155
54	505.1657994166744	occluder	2		91		507.94194966668147	0.7585660416516475
54	505.92436545832606	ball_movement	3		359	0.768678166671	508.7005157083331	2.9884474583377596
54	508.9128129166638	iti	4		157		511.6889631666709	1.3110389166686218
55	510.22385183333245	fixation	0		60		513.0000020833395	0.5035525416751625
55	510.7274043750076	interactor	1		149		513.5035546250147	1.238246666660416
55	511.965651041668	occluder	2		91		514.7418012916751	0.7586504166683881
55	512.7243014583364	ball_movement	3		360	0.758353166675	515.5004517083435	2.999490666668862
55	515.7237921250053	iti	4		365		518.4999423750123	3.045398041664157
56	518.7691901666694	fixation	0		59		521.5453404166765	0.48801729166007135
56	519.2572074583295	interactor	1		150		522.0333577083366	1.261756833337131
56	520.5189642916666	occluder	2		89		523.2951145416737	0.738677416666178
56	521.2576417083328	ball_movement	3		360	0.763593041673	524.0337919583399	2.999551208340563
56	524.2571929166734	iti	4		269		527.0333431666804	2.241550749997259
57	526.4987436666706	fixation	0		61		529.2748939166777	0.5083561249921331
57	527.0070997916628	interactor	1		149		529.7832500416698	1.2418117500055814
57	528.2489115416683	occluder	2		91		531.0250617916754	0.7586813749949215
57	529.0075929166633	ball_movement	3		359	0.768887541664	531.7837431666703	2.9910833750036545
57	531.9986762916669	iti	4		199		534.774826541674	1.6583835833444027
58	533.6570598750113	fixation	0		60		536.4332101250184	0.49947241666086484
58	534.1565322916722	interactor	1		150		536.9326825416792	1.2504106249980396
58	535.4069429166702	occluder	2		91		538.1830931666773	0.7588408750016242
58	536.1657837916719	ball_movement	3		359	0.763651250003	538.9419340416789	2.9911523749906337
58	539.1569361666625	iti	4		133		541.9330864166695	1.1136561250023078
59	540.2705922916648	fixation	0		60		543.0467425416718	0.49476887501077726
59	540.7653611666756	interactor	1		150		543.5415114166826	1.2534252083278261
59	542.0187863750034	occluder	2		89		544.7949366250105	0.7388272083335323
59	542.7576135833369	ball_movement	3		361	0.766594374989	545.533763833344	3.011147416662425
59	545.7687609999994	iti	4		295		548.5449112500064	2.454800500010606
60	548.22356150001	fixation	0		60		550.999711750017	0.4999359166540671
60	548.723497416664	interactor	1		151		551.4996476666711	1.2618563333380735
60	549.9853537500021	occluder	2		89		552.7615040000092	0.7386776666680817
60	550.7240314166702	ball_movement	3		360	0.730238874996	553.5001816666772	2.9994122499920195
60	553.7234436666622	iti	4		287		556.4995939166693	2.3917770000116434
61	556.1152206666738	fixation	0		61		558.8913709166809	0.5117811666568741
61	556.6270018333307	interactor	1		150		559.4031520833378	1.2467220416729106
61	557.8737238750036	occluder	2		89		560.6498741250107	0.741884500006563
61	558.6156083750102	ball_movement	3		361	0.738691583319	561.3917586250172	3.0078142499987734
61	561.623422625009	iti	4		269		564.399572875016	2.244374666654039
61	563.867797291663	task_prompt	5		300		566.6439475416701	4.996822708344553
61	568.8646200000076	post_prompt_iti	6		119		571.6407702500146	0.9920581250044052
62	569.856678125012	fixation	0		61		572.632828375019	0.5120124583190773
62	570.368690583331	interactor	1		150		573.1448408333381	1.24652083334513
62	571.6152114166762	occluder	2		90		574.3913616666832	0.7503327916638227
62	572.36554420834	ball_movement	3		359	0.746902083338	575.141694458347	2.9911120833276073
62	575.3566562916676	iti	4		126		578.1328065416747	1.0514818333322182
62	576.4081381249998	task_prompt	5		300		579.1842883750069	4.998995750007452
62	581.4071338750073	post_prompt_iti	6		120		584.1832841250143	0.9995133749907836
63	582.4066472499981	fixation	0		60		585.1827975000051	0.4970197916700272
63	582.9036670416681	interactor	1		150		585.6798172916751	1.2503392083308427
63	584.1540062499989	occluder	2		90		586.930156500006	0.7494362083380111
63	584.9034424583369	ball_movement	3		361	0.763943291662	587.679592708344	3.0115365416713757
63	587.9149790000083	iti	4		268		590.6911292500154	2.2368928749929182
64	590.1518718750012	fixation	0		60		592.9280221250083	0.49979445833014324
64	590.6516663333314	interactor	1		149		593.4278165833384	1.2385280000016792
64	591.890194333333	occluder	2		91		594.6663445833401	0.7584966666763648
64	592.6486910000094	ball_movement	3		359	0.710588416681	595.4248412500165	2.991181666657212
64	595.6398726666666	iti	4		300		598.4160229166737	2.503572208341211
65	598.1434448750078	fixation	0		60		600.9195951250149	0.4959554166562157
65	598.6394002916641	interactor	1		150		601.4155505416711	1.253896166672348
65	599.8932964583364	occluder	2		90		602.6694467083435	0.7499509166664211
65	600.6432473750028	ball_movement	3		348	0.727828041665	603.4193976250099	2.9903178333333926
65	603.6335652083362	iti	4		263		606.4097154583433	2.181217249992187
66	605.8147824583284	fixation	0		60		608.5909327083355	0.5034400000004098
66	606.3182224583288	interactor	1		149		609.0943727083359	1.2383434583462076
66	607.556565916675	occluder	2		91		610.3327161666821	0.7586576666653855
66	608.3152235833404	ball_movement	3		360	0.74411491667	611.0913738333475	3.0029214583337307
66	611.3181450416741	iti	4		221		614.0942952916812	1.837194499996258
66	613.1553395416704	short break	5		30		615.9314897916774	30.363580916658975
67	643.5189204583294	fixation	0		17		646.2950707083364	0.13688433333300054
67	643.6558047916624	interactor	1		150		646.4319550416694	1.2492794999998296
67	644.9050842916622	occluder	2		91		647.6812345416693	0.7593749583465979
67	645.6644592500088	ball_movement	3		359	0.716393583338	648.4406095000159	2.9884874999988824
67	648.6529467500077	iti	4		343		651.4290970000147	2.8647709999931976
68	651.5177177500009	fixation	0		60		654.2938680000079	0.49325366667471826
68	652.0109714166756	interactor	1		150		654.7871216666827	1.2571436666621594
68	653.2681150833378	occluder	2		90		656.0442653333448	0.7432810416648863
68	654.0113961250026	ball_movement	3		360	0.750331916657	656.7875463750097	3.006522916664835
68	657.0179190416675	iti	4		188		659.7940692916745	1.563208499996108
69	658.5811275416636	fixation	0		60		661.3572777916706	0.5034175833425252
69	659.0845451250061	interactor	1		150		661.8606953750132	1.2462470416649012
69	660.330792166671	occluder	2		90		663.1069424166781	0.7499700416665291
69	661.0807622083375	ball_movement	3		360	0.752273166669	663.8569124583446	2.9973783333261963
69	664.0781405416637	iti	4		325		666.8542907916708	2.711172125011217
70	666.789312666675	fixation	0		60		669.565462916682	0.4999453333293786
70	667.2892580000043	interactor	1		150		670.0654082500114	1.2500855833350215
70	668.5393435833394	occluder	2		90		671.3154938333464	0.7503344583237777
70	669.2896780416631	ball_movement	3		360	0.793990374994	672.0658282916702	3.003083500007051
70	672.2927615416702	iti	4		333		675.0689117916772	2.771433000001707
71	675.0641945416719	fixation	0		61		677.840344791679	0.5117756249965169
71	675.5759701666684	interactor	1		150		678.3521204166755	1.2500190833379747
71	676.8259892500064	occluder	2		90		679.6021395000134	0.746562416665256
71	677.5725516666716	ball_movement	3		360	0.763156041663	680.3487019166787	3.0033651249977993
71	680.5759167916694	iti	4		132		683.3520670416765	1.0936335416627117
72	681.6695503333322	fixation	0		60		684.4457005833392	0.5032484999974258
72	682.1727988333296	interactor	1		150		684.9489490833366	1.2530820416723145
72	683.4258808750019	occluder	2		90		686.202031125009	0.7499990000069374
72	684.1758798750088	ball_movement	3		360	0.803079416684	686.9520301250159	3.000005958325346
72	687.1758858333342	iti	4		134		689.9520360833412	1.1102108750055777
73	688.2860967083398	fixation	0		60		691.0622469583468	0.5029286249919096
73	688.7890253333317	interactor	1		150		691.5651755833387	1.2501520000078017
73	690.0391773333395	occluder	2		90		692.8153275833465	0.747237416668213
73	690.7864147500077	ball_movement	3		360	0.758622083333	693.5625650000147	3.002699541655602
73	693.7891142916633	iti	4		193		696.5652645416703	1.6052843333454803
74	695.3943986250088	fixation	0		60		698.1705488750158	0.5029489583248505
74	695.8973475833336	interactor	1		150		698.6734978333407	1.2496652083355002
74	697.1470127916691	occluder	2		90		699.9231630416762	0.7537893333355896
74	697.9008021250047	ball_movement	3		360	0.766699291664	700.6769523750118	2.999976874998538
74	700.9007790000032	iti	4		337		703.6769292500103	2.8048003333242377
75	703.7055793333275	fixation	0		61		706.4817295833345	0.508290041674627
75	704.2138693750021	interactor	1		149		706.9900196250092	1.241828041660483
75	705.4556974166626	occluder	2		90		708.2318476666696	0.7503535416763043
75	706.2060509583389	ball_movement	3		361	0.763606249995	708.9822012083459	3.0078191249922384
75	709.2138700833311	iti	4		255		711.9900203333382	2.128411750003579
76	711.3422818333347	fixation	0		60		714.1184320833418	0.4966613333381247
76	711.8389431666728	interactor	1		151		714.6150934166799	1.258351083335583
76	713.0972942500084	occluder	2		89		715.8734445000155	0.738971999991918
76	713.8362662500003	ball_movement	3		360	0.764412250006	716.6124165000074	2.999788166664075
76	716.8360544166644	iti	4		140		719.6122046666715	1.1693814166646916
77	718.0054358333291	fixation	0		60		720.7815860833362	0.49996650000684895
77	718.505402333336	interactor	1		149		721.281552583343	1.2419278333400143
77	719.747330166676	occluder	2		90		722.523480416683	0.7502394999901298
77	720.4975696666661	ball_movement	3		361	0.743538875002	723.2737199166731	3.0113117916625924
77	723.5088814583287	iti	4		174		726.2850317083357	1.4465770416718442
78	724.9554585000005	fixation	0		61		727.7316087500076	0.5117528749979101
78	725.4672113749984	interactor	1		149		728.2433616250055	1.2383664166700328
78	726.7055777916685	occluder	2		90		729.4817280416755	0.7502965416642837
78	727.4558743333328	ball_movement	3		361	0.793960166673	730.2320245833398	3.0078202083386714
78	730.4636945416714	iti	4		128		733.2398447916785	1.063432124996325
79	731.5271266666678	fixation	0		60		734.3032769166748	0.5068220833345549
79	732.0339487500023	interactor	1		151		734.8100990000094	1.2548814166657394
79	733.288830166668	occluder	2		89		736.0649804166751	0.7389445416629314
79	734.027774708331	ball_movement	3		360	0.730435583348	736.803924958338	2.9998119166702963
79	737.0275866250013	iti	4		275		739.8037368750083	2.291411458325456
80	739.3189980833267	fixation	0		60		742.0951483333338	0.5065030833357014
80	739.8255011666624	interactor	1		150		742.6016514166695	1.24993195834395
80	741.0754331250064	occluder	2		90		743.8515833750134	0.7439027083310066
80	741.8193358333374	ball_movement	3		361	0.738348750005	744.5954860833444	3.0111399166635238
80	744.8304757500009	iti	4		191		747.606626000008	1.593824791663792
80	746.4243005416647	task_prompt	5		300		749.2004507916718	5.001072916667908
80	751.4253734583326	post_prompt_iti	6		120		754.2015237083397	1.0003064166667173
81	752.4256798749993	fixation	0		60		755.2018301250064	0.4933973333390895
81	752.9190772083384	interactor	1		150		755.6952274583455	1.2562204166606534
81	754.1752976249991	occluder	2		90		756.9514478750061	0.7439108333346667
81	754.9192084583337	ball_movement	3		360	0.819985333321	757.6953587083408	2.9998293749958975
81	757.9190378333296	iti	4		280		760.6951880833367	2.3397153333353344
82	760.258753166665	fixation	0		59		763.034903416672	0.4881500833434984
82	760.7469032500085	interactor	1		151		763.5230535000155	1.258330083321198
82	762.0052333333297	occluder	2		89		764.7813835833367	0.7419862916722195
82	762.7472196250019	ball_movement	3		360	0.730298374998	765.5233698750089	2.9995126249996247
82	765.7467322500015	iti	4		164		768.5228825000086	1.3636995416745776
83	767.1104317916761	fixation	0		60		769.8865820416831	0.5065522916556802
83	767.6169840833318	interactor	1		150		770.3931343333388	1.2466711250017397
83	768.8636552083335	occluder	2		90		771.6398054583406	0.7470750416687224
83	769.6107302500022	ball_movement	3		360	0.749821458332	772.3868805000093	2.999854875000892
83	772.6105851250031	iti	4		341		775.3867353750102	2.8444347083277535
84	775.4550198333309	fixation	0		59		778.2311700833379	0.49694199999794364
84	775.9519618333288	interactor	1		150		778.7281120833359	1.2532654166716384
84	777.2052272500005	occluder	2		90		779.9813775000075	0.7501916250039358
84	777.9554188750044	ball_movement	3		360	0.744044833336	780.7315691250114	2.999049250007374
84	780.9544681250118	iti	4		272		783.7306183750188	2.267181374991196
85	783.221649500003	fixation	0		61		785.99779975001	0.5117228333256207
85	783.7333723333286	interactor	1		150		786.5095225833356	1.2500341666745953
85	784.9834065000032	occluder	2		90		787.7595567500102	0.7469389166653855
85	785.7303454166686	ball_movement	3		360	0.758424166663	788.5064956666756	3.003020000003744
85	788.7333654166723	iti	4		168		791.5095156666794	1.3965318749978906
86	790.1298972916702	fixation	0		59		792.9060475416773	0.49166920833522454
86	790.6215665000054	interactor	1		151		793.3977167500125	1.2617754583334317
86	791.8833419583389	occluder	2		89		794.6594922083459	0.7386861666600453
86	792.6220281249989	ball_movement	3		361	0.763545624999	795.398178375006	3.0077434583363356
86	795.6297715833352	iti	4		311		798.4059218333423	2.5916591249988414
87	798.2214307083341	fixation	0		60		800.9975809583411	0.5035049583384534
87	798.7249356666725	interactor	1		150		801.5010859166796	1.2437714583356865
87	799.9687071250082	occluder	2		90		802.7448573750153	0.7531890416576061
87	800.7218961666658	ball_movement	3		360	0.743539500007	803.4980464166729	2.9994497500010766
87	803.7213459166669	iti	4		152		806.497496166674	1.2658711249969201
